Source: Dr. Paul Ginoux at NOAA GFDL
wavelength (um)       RH			real		  imag
       40.0000      0.300000       1.72340      0.714496
       30.0300      0.300000       1.75730      0.291433
       25.0000      0.300000       1.74920      0.209556
       21.3220      0.300000       1.75344      0.167842
       18.4843      0.300000       1.77060      0.123794
       17.2117      0.300000       1.70534      0.102263
       16.3934      0.300000       1.56409     0.0766287
       14.9925      0.300000       1.44380     0.0334194
       14.7929      0.300000       1.43272     0.0299433
       12.5000      0.300000       1.42170     0.0165272
       11.4943      0.300000       1.48020     0.0141254
       11.0011      0.300000       1.48752     0.0140049
       10.5932      0.300000       1.50106     0.0140107
       10.0000      0.300000       1.53730     0.0155060
       9.19963      0.300000       1.61886     0.0259873
       9.00090      0.300000       1.65816     0.0280027
       8.70322      0.300000       1.58436     0.0295121
       8.19672      0.300000       1.41530     0.0209459
       7.89889      0.300000       1.40182     0.0154867
       7.19942      0.300000       1.43024    0.00750029
       6.50195      0.300000       1.47282    0.00500312
       6.19963      0.300000       1.58362     0.0218958
       5.99880      0.300000       1.42806     0.0129586
       5.50055      0.300000       1.43112    0.00332384
       5.00000      0.300000       1.46750    0.00275043
       4.50045      0.300000       1.48799    0.00270037
       3.74953      0.300000       1.47300    0.00120072
       3.39213      0.300000       1.48451    0.00215109
       3.00030      0.300000       1.60854    0.00739614
       2.69978      0.300000       1.40500    0.00949924
       2.50000      0.300000       1.42700    0.00550174
       2.25023      0.300000       1.43999    0.00200193
       2.00000      0.300000       1.44790    0.00100023
       1.53610      0.300000       1.45998   0.000600181
       1.06000      0.300000       1.47280   0.000200032
      0.694011      0.300000       1.48700   9.90737e-08
      0.549995      0.300000       1.49450   1.00021e-08
      0.336995      0.300000       1.50658   4.03131e-07
      0.300003      0.300000       1.50880   2.00010e-06
      0.173611      0.300000       1.51538   0.000163130